File: data_example/1_solartron_output/V429_w83.csv
Exported SMaRT Impedance Data
Experiment start time : 3/6/2011 9:40:46 PM

Result Number,Sweep Number,Point Number,Time,Frequency (Hz),AC Level (V),DC Level (V),Temperature (K),Impedance Magnitude (Ohms),Impedance Phase Degrees ('),Impedance Real (Ohms),Impedance Imaginary (Ohms)
1,1,1,00:00:08,10000000,3,0,-,6624.609,-83.68166,729.0568,-6584.369,
10,1,10,00:00:41,1778280,3,0,-,71066.26,-90.32623,-404.6751,-71065.11,
19,1,19,00:01:11,316227.8,3,0,-,429060.8,-88.97812,7652.144,-428992.6,
28,1,28,00:01:43,56234.13,3,0,-,2412293,-86.01222,167760.6,-2406453,
37,1,37,00:02:12,10000,3,0,-,1.27001E+07,-69.57713,4431655,-1.190181E+07,
46,1,46,00:02:41,1778.279,3,0,-,3.207354E+07,-27.22133,2.852128E+07,-1.467137E+07,
55,1,55,00:03:13,316.2278,3,0,-,3.582248E+07,-27.70312,3.171609E+07,-1.665352E+07,
64,2,3,00:03:50,46.41589,3,0,-,1.059968E+08,-64.71664,4.527074E+07,-9.584297E+07,
73,2,12,00:05:06,1.467799,3,0,-,1.523168E+09,-79.69987,2.723496E+08,-1.498622E+09,
82,4,4,00:09:18,5623413,3,0,-,13723.75,-83.55023,1541.623,-13636.89,
91,4,13,00:09:48,1000000,3,0,-,134557.8,-88.91206,2554.909,-134533.5,
100,4,22,00:10:18,177828,3,0,-,762788.2,-88.59298,18730.23,-762558.2,
109,4,31,00:10:50,31622.78,3,0,-,4257081,-82.99284,519336.3,-4225285,
118,4,40,00:11:19,5623.413,3,0,-,1.980513E+07,-56.03621,1.106452E+07,-1.642619E+07,
127,4,49,00:11:50,1000,3,0,-,3.271708E+07,-19.47083,3.084604E+07,-1.090548E+07,
136,4,58,00:12:23,177.8279,3,0,-,4.187793E+07,-40.94493,3.163207E+07,-2.7444E+07,
145,5,6,00:13:01,14.67799,3,0,-,2.681789E+08,-66.00683,1.090491E+08,-2.450066E+08,
154,6,2,00:15:11,0.4641589,3,0,-,4.488505E+09,-86.42981,2.79506E+08,-4.479794E+09,
163,7,7,00:18:26,3162278,3,0,-,31756.89,-85.78905,2331.877,-31671.16,
172,7,16,00:18:57,562341.3,3,0,-,241046.1,-89.07122,3907.353,-241014.5,
181,7,25,00:19:25,100000,3,0,-,1358367,-87.50437,59147.97,-1357079,
190,7,34,00:19:57,17782.79,3,0,-,7446944,-77.61967,1596627,-7273772,
199,7,43,00:20:26,3162.278,3,0,-,2.667407E+07,-39.92347,2.045641E+07,-1.711845E+07,
208,7,52,00:20:58,562.3413,3,0,-,3.265313E+07,-20.11761,3.066092E+07,-1.123099E+07,
217,7,61,00:21:31,100,3,0,-,5.785842E+07,-54.03713,3.397799E+07,-4.683047E+07,
226,8,9,00:22:17,4.641589,3,0,-,5.821465E+08,-68.86953,2.098598E+08,-5.43004E+08,
235,10,1,00:26:49,10000000,3,0,-,6624.841,-83.744,721.9169,-6585.39,
244,10,10,00:27:21,1778280,3,0,-,71070.33,-90.27069,-335.7938,-71069.53,
253,10,19,00:27:52,316227.8,3,0,-,429109.7,-88.94154,7926.926,-429036.5,
262,10,28,00:28:23,56234.13,3,0,-,2402895,-85.83605,174476.5,-2396552,
271,10,37,00:28:52,10000,3,0,-,1.26103E+07,-68.64524,4591937,-1.174452E+07,
280,10,46,00:29:22,1778.279,3,0,-,3.081E+07,-26.33731,2.761186E+07,-1.366901E+07,
289,10,55,00:29:54,316.2278,3,0,-,3.455507E+07,-28.582,3.034396E+07,-1.65317E+07,
298,11,3,00:30:30,46.41589,3,0,-,1.052053E+08,-65.03947,4.4396E+07,-9.537898E+07,
307,11,12,00:31:47,1.467799,3,0,-,1.512514E+09,-79.97327,2.633406E+08,-1.489413E+09,
316,13,4,00:36:00,5623413,3,0,-,13780.5,-83.49509,1561.175,-13691.78,
325,13,13,00:36:30,1000000,3,0,-,134603.1,-88.99031,2371.941,-134582.2,
334,13,22,00:37:00,177828,3,0,-,763420.3,-88.54057,19443.88,-763172.6,
343,13,31,00:37:31,31622.78,3,0,-,4255491,-82.8159,532183.6,-4222083,
352,13,40,00:38:01,5623.413,3,0,-,1.962863E+07,-55.2502,1.118821E+07,-1.612784E+07,
361,13,49,00:38:31,1000,3,0,-,3.177437E+07,-19.32419,2.998424E+07,-1.051455E+07,
370,13,58,00:39:04,177.8279,3,0,-,4.116699E+07,-41.62811,3.077119E+07,-2.734694E+07,
379,14,6,00:39:43,14.67799,3,0,-,2.645663E+08,-65.74708,1.086747E+08,-2.41216E+08,
388,15,2,00:41:54,0.4641589,3,0,-,4.411419E+09,-86.44811,2.732997E+08,-4.402945E+09,
397,16,7,00:45:09,3162278,3,0,-,31762.19,-85.8297,2309.794,-31678.09,
406,16,16,00:45:39,562341.3,3,0,-,240988.4,-88.96764,4341.97,-240949.3,
415,16,25,00:46:08,100000,3,0,-,1356613,-87.22102,65773.44,-1355017,
424,16,34,00:46:40,17782.79,3,0,-,7394523,-76.21178,1762367,-7181437,
433,16,43,00:47:09,3162.278,3,0,-,2.499008E+07,-36.76907,2.001842E+07,-1.495884E+07,
442,16,52,00:47:42,562.3413,3,0,-,2.907541E+07,-21.21202,2.710549E+07,-1.052007E+07,
451,16,61,00:48:15,100,3,0,-,5.560215E+07,-56.14936,3.097207E+07,-4.617716E+07,
460,17,9,00:49:02,4.641589,3,0,-,5.49665E+08,-69.91763,1.88739E+08,-5.162453E+08,
469,19,1,00:53:32,10000000,3,0,-,6629.032,-83.65361,732.7687,-6588.407,
478,19,10,00:54:04,1778280,3,0,-,71036.21,-90.23691,-293.7412,-71035.6,
487,19,19,00:54:35,316227.8,3,0,-,428418.1,-88.81499,8860.114,-428326.4,
496,19,28,00:55:07,56234.13,3,0,-,2398887,-85.17964,201583.7,-2390402,
505,19,37,00:55:36,10000,3,0,-,1.2324E+07,-65.71727,5068121,-1.123366E+07,
514,19,46,00:56:06,1778.279,3,0,-,2.704514E+07,-23.82912,2.473966E+07,-1.092651E+07,
523,19,55,00:56:37,316.2278,3,0,-,3.079426E+07,-31.49002,2.625923E+07,-1.608538E+07,
532,20,3,00:57:14,46.41589,3,0,-,1.022131E+08,-65.48518,4.241118E+07,-9.299902E+07,
541,20,12,00:58:26,1.467799,3,0,-,1.467404E+09,-81.0966,2.27109E+08,-1.449723E+09,
550,22,4,01:02:49,5623413,3,0,-,13720.54,-83.50429,1552.192,-13632.45,
559,22,13,01:03:18,1000000,3,0,-,134516.2,-88.78117,2861.339,-134485.8,
568,22,22,01:03:49,177828,3,0,-,761924.1,-88.33928,22081.56,-761604,
577,22,31,01:04:20,31622.78,3,0,-,4235462,-81.61752,617449.2,-4190214,
586,22,40,01:04:50,5623.413,3,0,-,1.849313E+07,-51.00762,1.16362E+07,-1.437341E+07,
595,22,49,01:05:20,1000,3,0,-,2.719049E+07,-18.72222,2.575173E+07,-8727607,
604,22,58,01:05:55,177.8279,3,0,-,3.797806E+07,-45.10825,2.680377E+07,-2.690523E+07,
613,23,6,01:06:34,14.67799,3,0,-,2.486184E+08,-64.86353,1.056072E+08,-2.250739E+08,
622,24,2,01:08:49,0.4641589,3,0,-,4.360864E+09,-86.74755,2.474168E+08,-4.35384E+09,
631,25,7,01:12:04,3162278,3,0,-,31762.3,-85.84642,2300.56,-31678.88,
640,25,16,01:12:35,562341.3,3,0,-,240865.5,-88.91015,4581.426,-240821.9,
649,25,25,01:13:04,100000,3,0,-,1356039,-87.03161,70223.05,-1354220,
658,25,34,01:13:35,17782.79,3,0,-,7370672,-75.29118,1871466,-7129125,
667,25,43,01:14:05,3162.278,3,0,-,2.381852E+07,-35.20014,1.946315E+07,-1.372981E+07,
676,25,52,01:14:36,562.3413,3,0,-,2.752601E+07,-21.88371,2.554255E+07,-1.02596E+07,
685,25,61,01:15:11,100,3,0,-,5.47794E+07,-57.0737,2.977588E+07,-4.59802E+07,
694,26,9,01:15:56,4.641589,3,0,-,5.398463E+08,-70.31787,1.818212E+08,-5.083061E+08,
703,28,1,01:20:29,10000000,3,0,-,6627.384,-83.67461,730.1716,-6587.038,
712,28,10,01:21:02,1778280,3,0,-,71015.02,-90.16208,-200.8958,-71014.73,
721,28,19,01:21:33,316227.8,3,0,-,428344.4,-88.81387,8867.061,-428252.6,
730,28,28,01:22:04,56234.13,3,0,-,2406157,-85.0778,206456,-2397283,
739,28,37,01:22:33,10000,3,0,-,1.226142E+07,-65.09896,5162703,-1.112156E+07,
748,28,46,01:23:03,1778.279,3,0,-,2.639861E+07,-23.4159,2.422454E+07,-1.049088E+07,
757,28,55,01:23:36,316.2278,3,0,-,3.023504E+07,-32.01971,2.563525E+07,-1.603095E+07,
766,29,3,01:24:13,46.41589,3,0,-,1.01877E+08,-65.61395,4.206328E+07,-9.278799E+07,
775,29,12,01:25:23,1.467799,3,0,-,1.462369E+09,-81.18127,2.241945E+08,-1.445081E+09,
784,31,4,01:29:27,5623413,3,0,-,13775.76,-83.4342,1575.184,-13685.41,
793,31,13,01:29:57,1000000,3,0,-,134610.5,-88.85109,2699.12,-134583.4,
802,31,22,01:30:27,177828,3,0,-,762588.1,-88.27689,22930.82,-762243.3,
811,31,31,01:30:59,31622.78,3,0,-,4236075,-81.54055,623167.4,-4189987,
820,31,40,01:31:28,5623.413,3,0,-,1.841159E+07,-50.7431,1.165083E+07,-1.42564E+07,
829,31,49,01:31:59,1000,3,0,-,2.693294E+07,-18.69613,2.551174E+07,-8633324,
838,31,58,01:32:33,177.8279,3,0,-,3.778498E+07,-45.32032,2.656823E+07,-2.686697E+07,
847,32,6,01:33:12,14.67799,3,0,-,2.471989E+08,-64.75591,1.054243E+08,-2.235912E+08,
856,33,2,01:35:26,0.4641589,3,0,-,4.28728E+09,-86.69772,2.469644E+08,-4.280161E+09,
865,34,7,01:38:23,3162278,3,0,-,31728.02,-85.69209,2383.308,-31638.38,
874,34,16,01:38:53,562341.3,3,0,-,240667.3,-88.9746,4306.962,-240628.8,
883,34,25,01:39:22,100000,3,0,-,1355105,-86.77036,76344.63,-1352953,
892,34,34,01:39:54,17782.79,3,0,-,7308453,-73.81586,2037052,-7018825,
901,34,43,01:40:23,3162.278,3,0,-,2.213523E+07,-32.5538,1.865749E+07,-1.191077E+07,
910,34,52,01:40:57,562.3413,3,0,-,2.490187E+07,-23.31661,2.286818E+07,-9856449,
919,34,61,01:41:32,100,3,0,-,5.311755E+07,-58.63182,2.764957E+07,-4.535388E+07,
928,35,9,01:42:16,4.641589,3,0,-,5.138932E+08,-71.41968,1.637439E+08,-4.871079E+08,
937,37,1,01:46:46,10000000,3,0,-,6628.905,-83.61771,736.8831,-6587.821,
946,37,10,01:47:19,1778280,3,0,-,70990.14,-90.1694,-209.938,-70989.83,
955,37,19,01:47:49,316227.8,3,0,-,428440,-88.66564,9977.165,-428323.8,
964,37,28,01:48:21,56234.13,3,0,-,2396796,-84.32181,237142,-2385035,
973,37,37,01:48:50,10000,3,0,-,1.189335E+07,-61.79721,5620725,-1.048138E+07,
982,37,46,01:49:20,1778.279,3,0,-,2.299745E+07,-21.42049,2.140891E+07,-8398894,
991,37,55,01:49:56,316.2278,3,0,-,2.720408E+07,-35.28747,2.220571E+07,-1.571523E+07,
1000,38,3,01:50:33,46.41589,3,0,-,9.860578E+07,-65.46115,4.095201E+07,-8.969968E+07,
1009,38,12,01:51:43,1.467799,3,0,-,1.415284E+09,-82.14015,1.93541E+08,-1.401988E+09,
1018,40,4,01:56:37,5623413,3,0,-,13751.83,-83.35568,1591.167,-13659.47,
1027,40,13,01:57:06,1000000,3,0,-,134419.7,-88.65248,3161.118,-134382.5,
1036,40,22,01:57:37,177828,3,0,-,761175.5,-88.04409,25979.48,-760732,
1045,40,31,01:58:08,31622.78,3,0,-,4216534,-80.01736,730936.3,-4152697,
1054,40,40,01:58:38,5623.413,3,0,-,1.705519E+07,-46.11302,1.182331E+07,-1.229183E+07,
1063,40,49,01:59:09,1000,3,0,-,2.281751E+07,-18.74828,2.160681E+07,-7333800,
1072,40,58,01:59:47,177.8279,3,0,-,3.507704E+07,-48.84794,2.308279E+07,-2.641181E+07,
1081,41,6,02:00:24,14.67799,3,0,-,2.287557E+08,-64.08187,9.998602E+07,-2.057473E+08,
1090,42,2,02:02:41,0.4641589,3,0,-,4.231186E+09,-86.94505,2.254968E+08,-4.225173E+09,
1099,43,7,02:05:37,3162278,3,0,-,31712.53,-85.64457,2408.371,-31620.95,
1108,43,16,02:06:08,562341.3,3,0,-,240596.6,-88.80143,5032.738,-240543.9,
1117,43,25,02:06:37,100000,3,0,-,1354589,-86.50951,82471.6,-1352077,
1126,43,34,02:07:09,17782.79,3,0,-,7259603,-72.59151,2171946,-6927083,
1135,43,43,02:07:38,3162.278,3,0,-,2.085578E+07,-31.03096,1.787108E+07,-1.075118E+07,
1144,43,52,02:08:12,562.3413,3,0,-,2.339605E+07,-24.32323,2.131933E+07,-9636454,
1153,43,61,02:08:48,100,3,0,-,5.231292E+07,-59.49742,2.655286E+07,-4.507314E+07,
1162,44,9,02:09:32,4.641589,3,0,-,5.033708E+08,-71.97359,1.557708E+08,-4.786623E+08,
1171,46,1,02:14:02,10000000,3,0,-,6637.154,-83.56303,744.0953,-6595.312,
1180,46,10,02:14:35,1778280,3,0,-,70946.5,-90.13855,-171.5598,-70946.29,
1189,46,19,02:15:06,316227.8,3,0,-,428024.2,-88.68082,9854.123,-427910.7,
1198,46,28,02:15:37,56234.13,3,0,-,2394724,-84.1392,244530.8,-2382207,
1207,46,37,02:16:06,10000,3,0,-,1.17783E+07,-61.01663,5707244,-1.030319E+07,
1216,46,46,02:16:36,1778.279,3,0,-,2.233507E+07,-21.07389,2.084125E+07,-8031056,
1225,46,55,02:17:13,316.2278,3,0,-,2.670975E+07,-35.8989,2.163632E+07,-1.566144E+07,
1234,47,3,02:17:50,46.41589,3,0,-,9.812259E+07,-65.45342,4.076336E+07,-8.925464E+07,
1243,47,12,02:19:05,1.467799,3,0,-,1.408587E+09,-82.24635,1.900384E+08,-1.395709E+09,
1252,49,4,02:23:27,5623413,3,0,-,13711.89,-83.36842,1583.517,-13620.14,
1261,49,13,02:23:57,1000000,3,0,-,134543.8,-88.70013,3052.187,-134509.2,
1270,49,22,02:24:27,177828,3,0,-,760579,-88.00188,26519.21,-760116.6,
1279,49,31,02:24:59,31622.78,3,0,-,4213408,-79.90174,738766.5,-4148136,
1288,49,40,02:25:28,5623.413,3,0,-,1.693658E+07,-45.71708,1.182515E+07,-1.212491E+07,
1297,49,49,02:26:00,1000,3,0,-,2.244853E+07,-18.76585,2.12552E+07,-7221723,
1306,49,58,02:26:37,177.8279,3,0,-,3.47537E+07,-49.2168,2.270108E+07,-2.631504E+07,
1315,50,6,02:27:14,14.67799,3,0,-,2.248272E+08,-63.8413,9.911714E+07,-2.017996E+08,
1324,51,2,02:29:31,0.4641589,3,0,-,4.139906E+09,-86.76644,2.335177E+08,-4.133315E+09,
1333,52,7,02:32:28,3162278,3,0,-,31695.09,-85.51653,2477.664,-31598.1,
1342,52,16,02:32:59,562341.3,3,0,-,240364.3,-88.81258,4981.111,-240312.7,
1351,52,25,02:33:28,100000,3,0,-,1352652,-86.13274,91230.4,-1349572,
1360,52,34,02:33:59,17782.79,3,0,-,7181418,-70.81963,2359407,-6782769,
1369,52,43,02:34:29,3162.278,3,0,-,1.911645E+07,-28.42718,1.681144E+07,-9100218,
1378,52,52,02:35:01,562.3413,3,0,-,2.1199E+07,-26.13409,1.903173E+07,-9337592,
1387,52,61,02:35:37,100,3,0,-,5.091488E+07,-60.69959,2.491718E+07,-4.440112E+07,
1396,53,9,02:36:23,4.641589,3,0,-,4.817853E+08,-73.17801,1.394284E+08,-4.61169E+08,
1405,55,1,02:41:12,10000000,3,0,-,6639.586,-83.41793,761.0732,-6595.823,
1414,55,10,02:41:45,1778280,3,0,-,70829.43,-90.02249,-27.82408,-70829.42,
1423,55,19,02:42:15,316227.8,3,0,-,428088.6,-88.4068,11902.29,-427923.1,
1432,55,28,02:42:47,56234.13,3,0,-,2393670,-83.2424,281661.6,-2377040,
1441,55,37,02:43:16,10000,3,0,-,1.13052E+07,-57.33696,6101392,-9517387,
1450,55,46,02:43:46,1778.279,3,0,-,1.932131E+07,-19.66495,1.819442E+07,-6501991,
1459,55,55,02:44:20,316.2278,3,0,-,2.431459E+07,-39.20357,1.88415E+07,-1.536871E+07,
1468,56,3,02:44:56,46.41589,3,0,-,9.448746E+07,-64.91895,4.005324E+07,-8.557814E+07,
1477,56,12,02:46:08,1.467799,3,0,-,1.368586E+09,-82.95987,1.677405E+08,-1.358268E+09,
1486,58,4,02:50:31,5623413,3,0,-,13721.54,-83.26051,1610.298,-13626.72,
1495,58,13,02:51:00,1000000,3,0,-,134131,-88.75006,2925.955,-134099.1,
1504,58,22,02:51:31,177828,3,0,-,759966,-87.66956,30902.38,-759337.4,
1513,58,31,02:52:02,31622.78,3,0,-,4185047,-78.18775,856702.3,-4096422,
1522,58,40,02:52:32,5623.413,3,0,-,1.554426E+07,-41.22799,1.169073E+07,-1.024455E+07,
1531,58,49,02:53:02,1000,3,0,-,1.920944E+07,-19.49451,1.810823E+07,-6410505,
1540,58,58,02:53:36,177.8279,3,0,-,3.284229E+07,-52.20171,2.01285E+07,-2.59511E+07,
1549,59,6,02:54:13,14.67799,3,0,-,2.09676E+08,-63.81907,9.25106E+07,-1.881643E+08,
1558,60,2,02:56:39,0.4641589,3,0,-,4.080264E+09,-86.61754,2.407402E+08,-4.073156E+09,
1567,61,7,02:59:36,3162278,3,0,-,31731.99,-85.61471,2426.339,-31639.09,
1576,61,16,03:00:07,562341.3,3,0,-,240489.2,-88.66841,5588.69,-240424.3,
1585,61,25,03:00:36,100000,3,0,-,1351535,-85.9085,96431.77,-1348091,
1594,61,34,03:01:07,17782.79,3,0,-,7114822,-69.66105,2472923,-6671233,
1603,61,43,03:01:37,3162.278,3,0,-,1.819593E+07,-27.25169,1.617625E+07,-8331916,
1612,61,52,03:02:07,562.3413,3,0,-,2.018126E+07,-27.25669,1.79404E+07,-9242563,
1621,61,61,03:02:42,100,3,0,-,5.030677E+07,-61.22374,2.421721E+07,-4.409419E+07,
1630,62,9,03:03:29,4.641589,3,0,-,4.73794E+08,-73.66208,1.332793E+08,-4.546619E+08,
1639,64,1,03:08:18,10000000,3,0,-,6635.768,-83.4269,759.6029,-6592.148,
1648,64,10,03:08:50,1778280,3,0,-,70964.59,-89.97111,35.80793,-70964.58,
1657,64,19,03:09:21,316227.8,3,0,-,428100.5,-88.41327,11854.27,-427936.4,
1666,64,28,03:09:53,56234.13,3,0,-,2389687,-83.08383,287759.6,-2372298,
1675,64,37,03:10:22,10000,3,0,-,1.122548E+07,-56.72145,6159532,-9384643,
1684,64,46,03:10:52,1778.279,3,0,-,1.887391E+07,-19.48212,1.779329E+07,-6294686,
1693,64,55,03:11:24,316.2278,3,0,-,2.402152E+07,-39.69434,1.848366E+07,-1.534234E+07,
1702,65,3,03:12:00,46.41589,3,0,-,9.400915E+07,-64.8309,3.998129E+07,-8.508359E+07,
1711,65,12,03:13:12,1.467799,3,0,-,1.360777E+09,-83.00139,1.658046E+08,-1.350638E+09,
1720,67,4,03:17:26,5623413,3,0,-,13730.66,-83.25779,1612.016,-13635.7,
1729,67,13,03:17:55,1000000,3,0,-,134468.6,-88.5815,3328.786,-134427.4,
1738,67,22,03:18:26,177828,3,0,-,760658.9,-87.61452,31660.65,-759999.7,
1747,67,31,03:18:58,31622.78,3,0,-,4176702,-77.75845,885601.8,-4081733,
1756,67,40,03:19:27,5623.413,3,0,-,1.510585E+07,-39.96671,1.157739E+07,-9703124,
1765,67,49,03:19:57,1000,3,0,-,1.820219E+07,-19.87104,1.711844E+07,-6187003,
1774,67,58,03:20:31,177.8279,3,0,-,3.211968E+07,-53.29616,1.919726E+07,-2.575148E+07,
1783,68,6,03:21:08,14.67799,3,0,-,2.015707E+08,-63.81147,8.895847E+07,-1.808788E+08,
1792,69,2,03:23:33,0.4641589,3,0,-,3.998909E+09,-86.46678,2.464427E+08,-3.991308E+09,
1801,70,7,03:26:30,3162278,3,0,-,31700.34,-85.49192,2491.648,-31602.26,
1810,70,16,03:27:01,562341.3,3,0,-,240422.5,-88.58446,5939.32,-240349.1,
1819,70,25,03:27:30,100000,3,0,-,1349530,-85.39338,108386.7,-1345170,
1828,70,34,03:28:01,17782.79,3,0,-,6999135,-67.26565,2704881,-6455348,
1837,70,43,03:28:31,3162.278,3,0,-,1.627839E+07,-24.9268,1.476201E+07,-6860691,
1846,70,52,03:29:02,562.3413,3,0,-,1.825636E+07,-29.57509,1.587774E+07,-9010679,
1855,70,61,03:29:36,100,3,0,-,4.895076E+07,-62.04267,2.29488E+07,-4.323805E+07,
1864,71,9,03:30:23,4.641589,3,0,-,4.543778E+08,-74.96117,1.178991E+08,-4.388155E+08,
1873,73,1,03:35:02,10000000,3,0,-,6633.742,-83.37604,765.2221,-6589.459,
1882,73,10,03:35:35,1778280,3,0,-,70903.7,-89.97311,33.29477,-70903.69,
1891,73,19,03:36:05,316227.8,3,0,-,427314.3,-88.28864,12761.61,-427123.7,
1900,73,28,03:36:37,56234.13,3,0,-,2379183,-82.02916,329919.8,-2356197,
1909,73,37,03:37:06,10000,3,0,-,1.066321E+07,-52.71757,6459184,-8484284,
1918,73,46,03:37:36,1778.279,3,0,-,1.624365E+07,-18.62377,1.539306E+07,-5187447,
1927,73,55,03:38:08,316.2278,3,0,-,2.212575E+07,-43.05571,1.616707E+07,-1.510545E+07,
1936,74,3,03:38:45,46.41589,3,0,-,8.976878E+07,-63.88586,3.951272E+07,-8.060509E+07,
1945,74,12,03:39:56,1.467799,3,0,-,1.320468E+09,-83.49822,1.495225E+08,-1.311976E+09,
1954,76,4,03:44:10,5623413,3,0,-,13737.95,-83.25288,1614.042,-13642.8,
1963,76,13,03:44:40,1000000,3,0,-,134132.4,-88.6067,3261.507,-134092.8,
1972,76,22,03:45:10,177828,3,0,-,759247.3,-87.25038,36422.39,-758373.1,
1981,76,31,03:45:42,31622.78,3,0,-,4144701,-76.09212,996227.4,-4023192,
1990,76,40,03:46:11,5623.413,3,0,-,1.394264E+07,-36.666,1.118381E+07,-8325835,
1999,76,49,03:46:41,1000,3,0,-,1.630002E+07,-20.96041,1.522141E+07,-5830886,
2008,76,58,03:47:15,177.8279,3,0,-,3.108952E+07,-55.02106,1.782286E+07,-2.547359E+07,
2017,77,6,03:47:52,14.67799,3,0,-,1.918775E+08,-64.02898,8.402633E+07,-1.725008E+08,
2026,78,2,03:50:27,0.4641589,3,0,-,4.001821E+09,-85.63412,3.046413E+08,-3.990209E+09,
2035,79,7,03:54:04,3162278,3,0,-,31713.99,-85.56465,2452.582,-31619.01,
2044,79,16,03:54:35,562341.3,3,0,-,240206.1,-88.58365,5937.351,-240132.7,
2053,79,25,03:55:03,100000,3,0,-,1350180,-85.19235,113160.1,-1345430,
2062,79,34,03:55:35,17782.79,3,0,-,6935759,-66.26366,2791841,-6349046,
2071,79,43,03:56:05,3162.278,3,0,-,1.561149E+07,-24.14626,1.424555E+07,-6386149,
2080,79,52,03:56:35,562.3413,3,0,-,1.765155E+07,-30.46336,1.521482E+07,-8949112,
2089,79,61,03:57:09,100,3,0,-,4.850895E+07,-62.2324,2.259967E+07,-4.292288E+07,
2098,80,9,03:57:56,4.641589,3,0,-,4.479609E+08,-75.17786,1.145971E+08,-4.330548E+08,
2107,82,1,04:03:26,10000000,3,0,-,6642.345,-83.59832,740.61,-6600.928,
2116,82,10,04:03:58,1778280,3,0,-,70851.77,-90.03842,-47.5037,-70851.76,
2125,82,19,04:04:29,316227.8,3,0,-,427645.4,-88.2086,13368.67,-427436.4,
2134,82,28,04:05:01,56234.13,3,0,-,2378749,-81.85353,337079.1,-2354745,
2143,82,37,04:05:30,10000,3,0,-,1.059126E+07,-52.21038,6489947,-8369915,
2152,82,46,04:06:00,1778.279,3,0,-,1.594311E+07,-18.58907,1.511134E+07,-5082318,
2161,82,55,04:06:32,316.2278,3,0,-,2.192039E+07,-43.41265,1.592348E+07,-1.506474E+07,
2170,83,3,04:07:08,46.41589,3,0,-,8.922118E+07,-63.73277,3.94856E+07,-8.000816E+07,
2179,83,12,04:08:19,1.467799,3,0,-,1.306119E+09,-83.48922,1.481014E+08,-1.297695E+09,
2188,85,4,04:12:54,5623413,3,0,-,13732.27,-83.23589,1617.418,-13636.69,
2197,85,13,04:13:23,1000000,3,0,-,134161.8,-88.52427,3455.172,-134117.3,
2206,85,22,04:13:54,177828,3,0,-,759076.2,-87.0032,39684.82,-758038.1,
2215,85,31,04:14:25,31622.78,3,0,-,4115246,-74.76549,1081366,-3970629,
2224,85,40,04:14:55,5623.413,3,0,-,1.29903E+07,-34.10532,1.075608E+07,-7283865,
2233,85,49,04:15:25,1000,3,0,-,1.479735E+07,-22.14148,1.370614E+07,-5577046,
2242,85,58,04:15:59,177.8279,3,0,-,3.018469E+07,-56.49675,1.666148E+07,-2.516963E+07,
2251,86,6,04:16:36,14.67799,3,0,-,1.814476E+08,-64.50742,7.809404E+07,-1.63782E+08,
2260,87,2,04:18:53,0.4641589,3,0,-,3.902244E+09,-85.4162,3.118575E+08,-3.889763E+09,
2269,88,7,04:22:10,3162278,3,0,-,31689.53,-85.55462,2456.225,-31594.2,
2278,88,16,04:22:41,562341.3,3,0,-,240134.8,-88.47673,6383.56,-240049.9,
2287,88,25,04:23:10,100000,3,0,-,1345766,-84.5743,127249.1,-1339736,
2296,88,34,04:23:42,17782.79,3,0,-,6754250,-63.25442,3039613,-6031637,
2305,88,43,04:24:11,3162.278,3,0,-,1.380439E+07,-22.15556,1.278512E+07,-5205947,
2314,88,52,04:24:42,562.3413,3,0,-,1.596333E+07,-33.36171,1.333282E+07,-8778598,
2323,88,61,04:25:16,100,3,0,-,4.706972E+07,-62.55466,2.169455E+07,-4.177206E+07,
2332,89,9,04:26:02,4.641589,3,0,-,4.307792E+08,-76.50298,1.005418E+08,-4.188819E+08,
2341,91,1,04:30:53,10000000,3,0,-,6641.204,-83.44174,758.5168,-6597.745,
2350,91,10,04:31:26,1778280,3,0,-,70838.49,-89.9175,102.0232,-70838.42,
2359,91,19,04:31:57,316227.8,3,0,-,427162.2,-87.97786,15072.82,-426896.2,
2368,91,28,04:32:28,56234.13,3,0,-,2368751,-80.59977,386888.8,-2336942,
2377,91,37,04:32:57,10000,3,0,-,9919950,-48.01199,6636200,-7373348,
2386,91,46,04:33:27,1778.279,3,0,-,1.37263E+07,-18.45143,1.302066E+07,-4344383,
2395,91,55,04:33:59,316.2278,3,0,-,2.042456E+07,-46.60598,1.403192E+07,-1.484143E+07,
2404,92,3,04:34:37,46.41589,3,0,-,8.436367E+07,-62.57562,3.885603E+07,-7.488283E+07,
2413,92,12,04:35:49,1.467799,3,0,-,1.272952E+09,-83.75514,1.384691E+08,-1.265399E+09,
2422,94,4,04:40:14,5623413,3,0,-,13714.48,-83.21939,1619.245,-13618.56,
2431,94,13,04:40:43,1000000,3,0,-,134226.5,-88.55745,3379.136,-134184,
2440,94,22,04:41:14,177828,3,0,-,758829.3,-86.78738,42526.18,-757636.7,
2449,94,31,04:41:45,31622.78,3,0,-,4092611,-73.77261,1143681,-3929562,
2458,94,40,04:42:15,5623.413,3,0,-,1.237023E+07,-32.53477,1.042891E+07,-6652849,
2467,94,49,04:42:45,1000,3,0,-,1.398417E+07,-22.98914,1.287354E+07,-5461610,
2476,94,58,04:43:18,177.8279,3,0,-,2.970095E+07,-57.20623,1.608654E+07,-2.496737E+07,
2485,95,6,04:43:55,14.67799,3,0,-,1.761101E+08,-64.69295,7.528166E+07,-1.592088E+08,
2494,96,2,04:46:12,0.4641589,3,0,-,3.839978E+09,-85.19827,3.214376E+08,-3.826501E+09,
2503,97,7,04:49:31,3162278,3,0,-,31676.24,-85.44313,2516.64,-31576.11,
2512,97,16,04:50:01,562341.3,3,0,-,240323.9,-88.43321,6571.074,-240234,
2521,97,25,04:50:30,100000,3,0,-,1346658,-84.408,131224.2,-1340249,
2530,97,34,04:51:02,17782.79,3,0,-,6721931,-62.68063,3085031,-5972180,
2539,97,43,04:51:32,3162.278,3,0,-,1.342149E+07,-21.78325,1.246312E+07,-4980664,
2548,97,52,04:52:02,562.3413,3,0,-,1.570269E+07,-33.90219,1.303309E+07,-8758593,
2557,97,61,04:52:36,100,3,0,-,4.680853E+07,-62.54027,2.158459E+07,-4.153485E+07,
2566,98,9,04:53:22,4.641589,3,0,-,4.263505E+08,-76.51492,9.942169E+07,-4.145963E+08,
2575,100,1,04:58:13,10000000,3,0,-,6640.54,-83.35068,768.9248,-6595.872,
2584,100,10,04:58:45,1778280,3,0,-,70764.95,-89.90381,118.8244,-70764.84,
2593,100,19,04:59:16,316227.8,3,0,-,427188.1,-87.84042,16097.77,-426884.7,
2602,100,28,04:59:48,56234.13,3,0,-,2364739,-80.16438,403950.3,-2329981,
2611,100,37,05:00:17,10000,3,0,-,9654681,-46.52447,6642854,-7006095,
2620,100,46,05:00:47,1778.279,3,0,-,1.292213E+07,-18.5017,1.225424E+07,-4100614,
2629,100,55,05:01:18,316.2278,3,0,-,1.969025E+07,-47.95763,1.318617E+07,-1.462296E+07,
2638,101,3,05:01:54,46.41589,3,0,-,8.187682E+07,-62.04094,3.838718E+07,-7.232038E+07,
2647,101,12,05:03:07,1.467799,3,0,-,1.251154E+09,-83.7915,1.353088E+08,-1.243816E+09,
2656,103,4,05:08:00,5623413,3,0,-,13753.57,-83.12455,1646.464,-13654.66,
2665,103,13,05:08:30,1000000,3,0,-,134180.2,-88.50604,3498.336,-134134.6,
2674,103,22,05:09:00,177828,3,0,-,757643.3,-86.41639,47356.75,-756161.8,
2683,103,31,05:09:32,31622.78,3,0,-,4048083,-71.88758,1258479,-3847493,
2692,103,40,05:10:02,5623.413,3,0,-,1.127054E+07,-29.77054,9783066,-5596136,
2701,103,49,05:10:32,1000,3,0,-,1.255002E+07,-24.83595,1.138932E+07,-5271279,
2710,103,58,05:11:04,177.8279,3,0,-,2.881758E+07,-58.45152,1.507794E+07,-2.455828E+07,
2719,104,6,05:11:41,14.67799,3,0,-,1.655336E+08,-65.66413,6.82139E+07,-1.508251E+08,
2728,105,2,05:13:57,0.4641589,3,0,-,3.73503E+09,-84.49892,3.580577E+08,-3.717828E+09,
2737,106,7,05:17:15,3162278,3,0,-,31662.02,-85.28363,2603.363,-31554.81,
2746,106,16,05:17:46,562341.3,3,0,-,239942.7,-88.25393,7311.102,-239831.3,
2755,106,25,05:18:15,100000,3,0,-,1343065,-83.61466,149368.9,-1334733,
2764,106,34,05:18:46,17782.79,3,0,-,6492781,-59.31094,3313778,-5583465,
2773,106,43,05:19:16,3162.278,3,0,-,1.167249E+07,-20.0608,1.096431E+07,-4003863,
2782,106,52,05:19:47,562.3413,3,0,-,1.432327E+07,-36.99334,1.144008E+07,-8618629,
2791,106,61,05:20:20,100,3,0,-,4.522142E+07,-62.3315,2.099881E+07,-4.005031E+07,
2800,107,9,05:21:07,4.641589,3,0,-,4.123337E+08,-77.74416,8.752923E+07,-4.029364E+08,
2809,109,1,05:25:58,10000000,3,0,-,6598.011,-83.85382,706.4212,-6560.085,
2818,109,10,05:26:31,1778280,3,0,-,71001.23,-90.04932,-61.11606,-71001.21,
2827,109,19,05:27:02,316227.8,3,0,-,426672.5,-87.67854,17282.97,-426322.3,
2836,109,28,05:27:33,56234.13,3,0,-,2356093,-79.0281,448430.1,-2313025,
2845,109,37,05:28:03,10000,3,0,-,9166686,-43.48841,6650557,-6308584,
2854,109,46,05:28:33,1778.279,3,0,-,1.172643E+07,-18.811,1.11001E+07,-3781157,
2863,109,55,05:29:03,316.2278,3,0,-,1.899896E+07,-49.64721,1.230168E+07,-1.447857E+07,
2872,110,3,05:29:40,46.41589,3,0,-,7.876371E+07,-61.41339,3.76874E+07,-6.9162E+07,
2881,110,12,05:30:51,1.467799,3,0,-,1.233121E+09,-83.77056,1.338065E+08,-1.22584E+09,
2890,112,4,05:35:16,5623413,3,0,-,13735.96,-83.60392,1530.203,-13650.46,
2899,112,13,05:35:46,1000000,3,0,-,134159.1,-88.42175,3695.078,-134108.2,
2908,112,22,05:36:16,177828,3,0,-,757733.6,-86.27601,49215.13,-756133.7,
2917,112,31,05:36:48,31622.78,3,0,-,4031962,-71.22891,1297438,-3817509,
2926,112,40,05:37:17,5623.413,3,0,-,1.094526E+07,-28.97569,9575190,-5302304,
2935,112,49,05:37:47,1000,3,0,-,1.21916E+07,-25.39345,1.10137E+07,-5228147,
2944,112,58,05:38:20,177.8279,3,0,-,2.85832E+07,-58.71297,1.4844E+07,-2.442652E+07,
2953,113,6,05:38:57,14.67799,3,0,-,1.630937E+08,-65.86439,6.668867E+07,-1.48836E+08,
2962,114,2,05:41:13,0.4641589,3,0,-,3.701967E+09,-84.35544,3.641153E+08,-3.684017E+09,
2971,115,7,05:44:30,3162278,3,0,-,31743.89,-85.84815,2298.268,-31660.59,
2980,115,16,05:45:01,562341.3,3,0,-,240214.9,-88.27249,7241.641,-240105.7,
2989,115,25,05:45:30,100000,3,0,-,1343503,-83.44717,153319.8,-1334725,
2998,115,34,05:46:02,17782.79,3,0,-,6458346,-58.88276,3337616,-5529064,
3007,115,43,05:46:32,3162.278,3,0,-,1.152194E+07,-20.01605,1.082598E+07,-3943767,
3016,115,52,05:47:02,562.3413,3,0,-,1.414796E+07,-37.42813,1.123512E+07,-8598642,
3025,115,61,05:47:35,100,3,0,-,4.491332E+07,-62.24485,2.091588E+07,-3.974585E+07,
3034,116,9,05:48:22,4.641589,3,0,-,4.083415E+08,-77.91843,8.546765E+07,-3.99297E+08,
3043,118,1,05:53:13,10000000,3,0,-,6605.51,-83.6701,728.2803,-6565.24,
3052,118,10,05:53:45,1778280,3,0,-,70985.59,-90.07574,-93.8511,-70985.53,
3061,118,19,05:54:16,316227.8,3,0,-,427198.4,-87.45431,18974.62,-426776.8,
3070,118,28,05:54:48,56234.13,3,0,-,2345772,-78.01887,486958.3,-2294672,
3079,118,37,05:55:17,10000,3,0,-,8698477,-40.89386,6575385,-5694543,
3088,118,46,05:55:47,1778.279,3,0,-,1.06404E+07,-19.41891,1.00351E+07,-3537639,
3097,118,55,05:56:18,316.2278,3,0,-,1.831711E+07,-51.37071,1.143499E+07,-1.430935E+07,
3106,119,3,05:56:55,46.41589,3,0,-,7.489053E+07,-60.91478,3.640505E+07,-6.544664E+07,
3115,119,12,05:58:07,1.467799,3,0,-,1.213827E+09,-83.66724,1.338884E+08,-1.20642E+09,
3124,121,4,06:02:32,5623413,3,0,-,13715.51,-84.01098,1431.053,-13640.65,
3133,121,13,06:03:01,1000000,3,0,-,134501.1,-88.41632,3717.233,-134449.7,
3142,121,22,06:03:32,177828,3,0,-,756820.3,-85.7763,55740.62,-754764.8,
3151,121,31,06:04:04,31622.78,3,0,-,3967685,-68.92908,1426475,-3702390,
3160,121,40,06:04:34,5623.413,3,0,-,9819030,-26.37992,8796551,-4362803,
3169,121,49,06:05:04,1000,3,0,-,1.095097E+07,-27.67677,9697982,-5086540,
3178,121,58,06:05:36,177.8279,3,0,-,2.771257E+07,-59.51055,1.40608E+07,-2.388054E+07,
3187,122,6,06:06:13,14.67799,3,0,-,1.538749E+08,-67.3702,5.920731E+07,-1.420281E+08,
3196,123,2,06:08:30,0.4641589,3,0,-,3.609732E+09,-83.326,4.195244E+08,-3.58527E+09,
3205,124,7,06:11:48,3162278,3,0,-,31755.49,-86.06735,2177.92,-31680.72,
3214,124,16,06:12:19,562341.3,3,0,-,240391.8,-88.12923,7847.754,-240263.6,
3223,124,25,06:12:48,100000,3,0,-,1338952,-82.58155,172879,-1327745,
3232,124,34,06:13:19,17782.79,3,0,-,6194074,-55.35393,3521366,-5095737,
3241,124,43,06:13:49,3162.278,3,0,-,1.006319E+07,-19.00974,9514380,-3277872,
3250,124,52,06:14:20,562.3413,3,0,-,1.298254E+07,-40.32779,9897298,-8401774,
3259,124,61,06:14:52,100,3,0,-,4.324445E+07,-61.67848,2.051599E+07,-3.806805E+07,
3268,125,9,06:15:38,4.641589,3,0,-,4.006495E+08,-78.94147,7.684938E+07,-3.932101E+08,
3277,127,1,06:20:30,10000000,3,0,-,6592.143,-83.87267,703.6375,-6554.482,
3286,127,10,06:21:02,1778280,3,0,-,70959.99,-90.06537,-81.00439,-70959.95,
3295,127,19,06:21:33,316227.8,3,0,-,427136.4,-87.29521,20156.67,-426660.6,
3304,127,28,06:22:05,56234.13,3,0,-,2338128,-77.35683,511766.9,-2281434,
3313,127,37,06:22:34,10000,3,0,-,8405049,-39.35523,6499031,-5329864,
3322,127,46,06:23:04,1778.279,3,0,-,1.011988E+07,-19.75954,9524020,-3421263,
3331,127,55,06:23:35,316.2278,3,0,-,1.801873E+07,-52.14351,1.105784E+07,-1.422669E+07,
3340,128,3,06:24:11,46.41589,3,0,-,7.304807E+07,-60.70261,3.574555E+07,-6.37046E+07,
3349,128,12,06:25:22,1.467799,3,0,-,1.208108E+09,-83.65329,1.335501E+08,-1.200703E+09,
3358,130,4,06:29:48,5623413,3,0,-,13723.04,-83.68001,1510.653,-13639.64,
3367,130,13,06:30:17,1000000,3,0,-,134337.3,-88.44657,3641.814,-134287.9,
3376,130,22,06:30:48,177828,3,0,-,757532.4,-85.68732,56966.27,-755387.5,
3385,130,31,06:31:19,31622.78,3,0,-,3957543,-68.51111,1449731,-3682449,
3394,130,40,06:31:49,5623.413,3,0,-,9649076,-25.98626,8673546,-4227796,
3403,130,49,06:32:19,1000,3,0,-,1.078355E+07,-28.03474,9518241,-5068342,
3412,130,58,06:32:51,177.8279,3,0,-,2.758814E+07,-59.57759,1.396984E+07,-2.378968E+07,
3421,131,6,06:33:28,14.67799,3,0,-,1.52734E+08,-67.56876,5.827944E+07,-1.411778E+08,
3430,132,2,06:35:45,0.4641589,3,0,-,3.599354E+09,-83.21954,4.249604E+08,-3.57418E+09,
3439,133,7,06:39:03,3162278,3,0,-,31711.72,-85.85091,2294.416,-31628.61,
3448,133,16,06:39:34,562341.3,3,0,-,240187,-88.08092,8043.467,-240052.3,
3457,133,25,06:40:03,100000,3,0,-,1340082,-82.51429,174584.8,-1328661,
3466,133,34,06:40:34,17782.79,3,0,-,6171385,-55.08304,3532432,-5060427,
3475,133,43,06:41:04,3162.278,3,0,-,9962276,-18.91068,9424562,-3228710,
3484,133,52,06:41:35,562.3413,3,0,-,1.290749E+07,-40.46131,9820589,-8376110,
3493,133,61,06:42:08,100,3,0,-,4.299657E+07,-61.59224,2.045534E+07,-3.78191E+07,
3502,134,9,06:42:55,4.641589,3,0,-,3.987781E+08,-79.10174,7.539538E+07,-3.915859E+08,
3511,136,1,06:47:51,10000000,3,0,-,6581.224,-83.73094,718.655,-6541.869,
3520,136,10,06:48:23,1778280,3,0,-,70891.09,-90.05634,-69.70407,-70891.05,
3529,136,19,06:48:54,316227.8,3,0,-,426687.7,-87.13874,21299.38,-426155.8,
3538,136,28,06:49:26,56234.13,3,0,-,2326943,-76.26179,552616.9,-2260371,
3547,136,37,06:49:55,10000,3,0,-,7938343,-37.05569,6335196,-4783573,
3556,136,46,06:50:26,1778.279,3,0,-,9269043,-20.63705,8674266,-3266845,
3565,136,55,06:50:57,316.2278,3,0,-,1.747686E+07,-53.49714,1.039634E+07,-1.404837E+07,
3574,137,3,06:51:33,46.41589,3,0,-,6.929846E+07,-60.53252,3.408997E+07,-6.033365E+07,
3583,137,12,06:52:45,1.467799,3,0,-,1.192973E+09,-83.40153,1.370858E+08,-1.18507E+09,
3592,139,4,06:57:15,5623413,3,0,-,13720.98,-83.65836,1515.579,-13637.02,
3601,139,13,06:57:45,1000000,3,0,-,134014.8,-88.35542,3846.189,-133959.6,
3610,139,22,06:58:15,177828,3,0,-,756595.9,-85.19486,63378.14,-753936.8,
3619,139,31,06:58:47,31622.78,3,0,-,3882597,-66.05856,1575569,-3548540,
3628,139,40,06:59:17,5623.413,3,0,-,8651875,-23.84942,7913103,-3498249,
3637,139,49,06:59:47,1000,3,0,-,9798296,-30.36227,8454428,-4952702,
3646,139,58,07:00:19,177.8279,3,0,-,2.6719E+07,-59.89,1.340391E+07,-2.311364E+07,
3655,140,6,07:00:56,14.67799,3,0,-,1.454919E+08,-69.27312,5.149161E+07,-1.360754E+08,
3664,141,2,07:03:17,0.4641589,3,0,-,3.508143E+09,-81.86371,4.965027E+08,-3.472831E+09,
3673,142,7,07:06:39,3162278,3,0,-,31696.14,-85.72045,2365.264,-31607.76,
3682,142,16,07:07:11,562341.3,3,0,-,240153.3,-87.88116,8879.077,-239989.1,
3691,142,25,07:07:40,100000,3,0,-,1334486,-81.53667,196405.2,-1319953,
3700,142,34,07:08:11,17782.79,3,0,-,5876720,-51.48978,3659165,-4598515,
3709,142,43,07:08:41,3162.278,3,0,-,8748295,-18.23774,8308834,-2737871,
3718,142,52,07:09:12,562.3413,3,0,-,1.206353E+07,-43.14926,8801245,-8250262,
3727,142,61,07:09:45,100,3,0,-,4.108123E+07,-60.81616,2.003177E+07,-3.586636E+07,
3736,143,9,07:10:32,4.641589,3,0,-,3.927603E+08,-79.939,6.861397E+07,-3.867205E+08,
3745,145,1,07:15:28,10000000,3,0,-,6605.393,-83.6456,731.0731,-6564.812,
3754,145,10,07:16:01,1778280,3,0,-,70818.73,-89.88728,139.3479,-70818.59,
3763,145,19,07:16:32,316227.8,3,0,-,426283.3,-86.9677,22550.03,-425686.5,
3772,145,28,07:17:03,56234.13,3,0,-,2312899,-75.53863,577594.2,-2239617,
3781,145,37,07:17:33,10000,3,0,-,7620764,-35.69505,6189082,-4446495,
3790,145,46,07:18:03,1778.279,3,0,-,8851674,-21.10073,8258160,-3186680,
3799,145,55,07:18:34,316.2278,3,0,-,1.72182E+07,-54.05376,1.010753E+07,-1.39393E+07,
3808,146,3,07:19:10,46.41589,3,0,-,6.758279E+07,-60.5264,3.325226E+07,-5.883639E+07,
3817,146,12,07:20:22,1.467799,3,0,-,1.186805E+09,-83.27688,1.389414E+08,-1.178644E+09,
3826,148,4,07:24:51,5623413,3,0,-,13745.12,-83.27289,1610.118,-13650.49,
3835,148,13,07:25:20,1000000,3,0,-,134205.8,-88.14713,4339.31,-134135.6,
3844,148,22,07:25:51,177828,3,0,-,755143.1,-85.08004,64764.38,-752360.8,
3853,148,31,07:26:22,31622.78,3,0,-,3867438,-65.62598,1596059,-3522736,
3862,148,40,07:26:52,5623.413,3,0,-,8505089,-23.53965,7797329,-3396792,
3871,148,49,07:27:22,1000,3,0,-,9668787,-30.75777,8308748,-4944710,
3880,148,58,07:27:55,177.8279,3,0,-,2.658985E+07,-59.88889,1.333956E+07,-2.300166E+07,
3889,149,6,07:28:32,14.67799,3,0,-,1.445514E+08,-69.49416,5.063678E+07,-1.353921E+08,
3898,150,2,07:30:49,0.4641589,3,0,-,3.498035E+09,-81.76625,5.009618E+08,-3.461977E+09,
3907,151,7,07:34:12,3162278,3,0,-,31703.55,-85.37538,2556.178,-31600.33,
3916,151,16,07:34:43,562341.3,3,0,-,239702.9,-87.83029,9075.138,-239531.1,
3925,151,25,07:35:12,100000,3,0,-,1335480,-81.37704,200231.1,-1320384,
3934,151,34,07:35:44,17782.79,3,0,-,5833435,-50.99089,3671821,-4532846,
3943,151,43,07:36:14,3162.278,3,0,-,8563957,-18.4258,8124916,-2706863,
3952,151,52,07:36:45,562.3413,3,0,-,1.190029E+07,-43.79723,8589557,-8236289,
3961,151,61,07:37:17,100,3,0,-,4.048603E+07,-60.59848,1.987569E+07,-3.527146E+07,
3970,152,9,07:38:05,4.641589,3,0,-,3.903544E+08,-80.17465,6.661226E+07,-3.846288E+08,
3979,154,1,07:43:01,10000000,3,0,-,6637.018,-83.3267,771.2759,-6592.051,
3988,154,10,07:43:33,1778280,3,0,-,70760.22,-89.60341,489.813,-70758.52,
3997,154,19,07:44:04,316227.8,3,0,-,426385.7,-86.66002,24841.67,-425661.4,
4006,154,28,07:44:36,56234.13,3,0,-,2301409,-74.25344,624563,-2215040,
4015,154,37,07:45:05,10000,3,0,-,7149298,-33.29817,5975561,-3924936,
4024,154,46,07:45:36,1778.279,3,0,-,8093275,-22.22946,7491752,-3061821,
4033,154,55,07:46:07,316.2278,3,0,-,1.671797E+07,-55.09112,9567244,-1.370979E+07,
4042,155,3,07:46:43,46.41589,3,0,-,6.37199E+07,-60.75102,3.113392E+07,-5.559591E+07,
4051,155,12,07:47:56,1.467799,3,0,-,1.169731E+09,-82.7888,1.468335E+08,-1.160479E+09,
4060,157,4,07:52:26,5623413,3,0,-,13717.45,-83.40621,1575.172,-13626.72,
4069,157,13,07:52:55,1000000,3,0,-,133933.7,-88.12494,4382.378,-133862,
4078,157,22,07:53:26,177828,3,0,-,754660,-84.50092,72319.17,-751186.8,
4087,157,31,07:53:57,31622.78,3,0,-,3777321,-62.99306,1715276,-3365409,
4096,157,40,07:54:27,5623.413,3,0,-,7603805,-21.77698,7061160,-2820972,
4105,157,49,07:54:58,1000,3,0,-,8868558,-33.17193,7423272,-4852460,
4114,157,58,07:55:30,177.8279,3,0,-,2.565147E+07,-59.73523,1.292826E+07,-2.215532E+07,
4123,158,6,07:56:08,14.67799,3,0,-,1.386846E+08,-71.24615,4.458754E+07,-1.313216E+08,
4132,159,2,07:58:25,0.4641589,3,0,-,3.390312E+09,-79.91364,5.937541E+08,-3.337914E+09,
4141,160,7,08:01:47,3162278,3,0,-,31778.62,-85.59795,2439.172,-31684.87,
4150,160,16,08:02:18,562341.3,3,0,-,239925.8,-87.69532,9648.293,-239731.7,
4159,160,25,08:02:47,100000,3,0,-,1328487,-80.34105,222898.2,-1309654,
4168,160,34,08:03:18,17782.79,3,0,-,5538821,-47.67765,3729294,-4095229,
4177,160,43,08:03:49,3162.278,3,0,-,7658363,-18.25129,7273087,-2398486,
4186,160,52,08:04:20,562.3413,3,0,-,1.131493E+07,-45.69082,7903820,-8096747,
4195,160,61,08:04:53,100,3,0,-,3.864602E+07,-59.89156,1.938633E+07,-3.34318E+07,
4204,161,9,08:05:41,4.641589,3,0,-,3.858336E+08,-80.61664,6.290622E+07,-3.806709E+08,
4213,163,1,08:10:36,10000000,3,0,-,6604.574,-83.97088,693.7061,-6568.041,
4222,163,10,08:11:09,1778280,3,0,-,70895.24,-89.90152,121.8815,-70895.14,
4231,163,19,08:11:40,316227.8,3,0,-,425766.8,-86.58678,25348.89,-425011.5,
4240,163,28,08:12:11,56234.13,3,0,-,2289841,-73.56844,647727.9,-2196320,
4249,163,37,08:12:41,10000,3,0,-,6938174,-32.22273,5869569,-3699517,
4258,163,46,08:13:12,1778.279,3,0,-,7791815,-22.74666,7185796,-3012761,
4267,163,55,08:13:43,316.2278,3,0,-,1.652085E+07,-55.38693,9384366,-1.359677E+07,
4276,164,3,08:14:20,46.41589,3,0,-,6.228067E+07,-60.87011,3.031769E+07,-5.44033E+07,
4285,164,12,08:15:32,1.467799,3,0,-,1.163343E+09,-82.58467,1.501424E+08,-1.153614E+09,
4294,166,4,08:20:02,5623413,3,0,-,13711.71,-83.89706,1457.765,-13633.99,
4303,166,13,08:20:32,1000000,3,0,-,134106.6,-88.18044,4258.18,-134039,
4312,166,22,08:21:02,177828,3,0,-,754640.1,-84.37685,73943.53,-751008.6,
4321,166,31,08:21:34,31622.78,3,0,-,3765120,-62.62171,1731442,-3343388,
4330,166,40,08:22:04,5623.413,3,0,-,7484814,-21.53498,6962327,-2747443,
4339,166,49,08:22:34,1000,3,0,-,8773871,-33.43574,7321835,-4834414,
4348,166,58,08:23:06,177.8279,3,0,-,2.551424E+07,-59.66319,1.288679E+07,-2.20206E+07,
4357,167,6,08:23:45,14.67799,3,0,-,1.379946E+08,-71.44801,4.390508E+07,-1.308237E+08,
4366,168,2,08:26:02,0.4641589,3,0,-,3.379458E+09,-79.78451,5.993505E+08,-3.325885E+09,
4375,169,7,08:29:25,3162278,3,0,-,31757.82,-85.79288,2329.833,-31672.24,
4384,169,16,08:29:56,562341.3,3,0,-,239921.9,-87.64769,9847.426,-239719.7,
4393,169,25,08:30:25,100000,3,0,-,1327050,-80.08723,228450.1,-1307239,
4402,169,34,08:30:59,17782.79,3,0,-,5447054,-46.69236,3736218,-3963718,
4411,169,43,08:31:29,3162.278,3,0,-,7294103,-18.23862,6927657,-2282872,
4420,169,52,08:32:00,562.3413,3,0,-,1.107203E+07,-46.57147,7611463,-8040870,
4429,169,61,08:32:33,100,3,0,-,3.765312E+07,-59.58117,1.906443E+07,-3.247006E+07,
4438,170,9,08:33:20,4.641589,3,0,-,3.828611E+08,-80.78386,6.131886E+07,-3.779188E+08,
4447,172,1,08:38:19,10000000,3,0,-,6575.521,-83.99973,687.3614,-6539.497,
4456,172,10,08:38:51,1778280,3,0,-,70969.09,-89.9525,58.85984,-70969.06,
4465,172,19,08:39:22,316227.8,3,0,-,425812.3,-86.31983,27331.7,-424934.3,
4474,172,28,08:39:54,56234.13,3,0,-,2272152,-72.04354,700491.7,-2161478,
4483,172,37,08:40:23,10000,3,0,-,6412020,-30.05167,5550080,-3211016,
4492,172,46,08:40:54,1778.279,3,0,-,7135846,-24.09883,6513904,-2913650,
4501,172,55,08:41:25,316.2278,3,0,-,1.602E+07,-56.04879,8946959,-1.32888E+07,
4510,173,3,08:42:01,46.41589,3,0,-,5.862984E+07,-61.40793,2.805852E+07,-5.147988E+07,
4519,173,12,08:43:14,1.467799,3,0,-,1.142901E+09,-81.67865,1.654066E+08,-1.130868E+09,
4528,175,4,08:47:46,5623413,3,0,-,13751.73,-83.8557,1471.892,-13672.74,
4537,175,13,08:48:16,1000000,3,0,-,134435.8,-88.02613,4630.519,-134356.1,
4546,175,22,08:48:46,177828,3,0,-,753048.4,-83.71529,82435.8,-748522.7,
4555,175,31,08:49:18,31622.78,3,0,-,3659028,-59.815,1839737,-3162887,
4564,175,40,08:49:48,5623.413,3,0,-,6685774,-20.11574,6277940,-2299356,
4573,175,49,08:50:18,1000,3,0,-,8114211,-35.80183,6580993,-4746679,
4582,175,58,08:50:51,177.8279,3,0,-,2.444356E+07,-59.14344,1.253688E+07,-2.098367E+07,
4591,176,6,08:51:28,14.67799,3,0,-,1.332242E+08,-73.10445,3.871871E+07,-1.274738E+08,
4600,177,2,08:53:48,0.4641589,3,0,-,3.247454E+09,-77.1775,7.207132E+08,-3.16647E+09,
4609,178,7,08:57:10,3162278,3,0,-,31770.14,-85.89967,2271.678,-31688.82,
4618,178,16,08:57:41,562341.3,3,0,-,239735.6,-87.46088,10620.72,-239500.3,
4627,178,25,08:58:10,100000,3,0,-,1322630,-79.05331,251161.7,-1298563,
4636,178,34,08:58:41,17782.79,3,0,-,5175304,-43.95211,3725806,-3591955,
4645,178,43,08:59:12,3162.278,3,0,-,6661444,-18.19756,6328274,-2080332,
4654,178,52,08:59:43,562.3413,3,0,-,1.069409E+07,-47.81092,7181929,-7923596,
4663,178,61,09:00:15,100,3,0,-,3.601912E+07,-59.12785,1.848228E+07,-3.091573E+07,
4672,179,9,09:01:04,4.641589,3,0,-,3.79095E+08,-80.9286,5.977018E+07,-3.743535E+08,
4681,181,1,09:06:03,10000000,3,0,-,6570.619,-84.05328,680.7422,-6535.26,
4690,181,10,09:06:35,1778280,3,0,-,70953.86,-90.05209,-64.54401,-70953.83,
4699,181,19,09:07:06,316227.8,3,0,-,426021.6,-86.11335,28877.09,-425041.8,
4708,181,28,09:07:38,56234.13,3,0,-,2266515,-71.44091,721392.5,-2148647,
4717,181,37,09:08:07,10000,3,0,-,6258491,-29.23134,5461505,-3056253,
4726,181,46,09:08:37,1778.279,3,0,-,6941420,-24.64952,6308890,-2895033,
4735,181,55,09:09:08,316.2278,3,0,-,1.585834E+07,-56.16489,8830002,-1.317263E+07,
4744,182,3,09:09:45,46.41589,3,0,-,5.750671E+07,-61.56874,2.737919E+07,-5.057076E+07,
4753,182,12,09:10:57,1.467799,3,0,-,1.136799E+09,-81.43562,1.69293E+08,-1.124123E+09,
4762,184,4,09:15:30,5623413,3,0,-,13744.5,-83.98621,1439.983,-13668.86,
4771,184,13,09:15:59,1000000,3,0,-,134229.7,-88.09748,4456.355,-134155.7,
4780,184,22,09:16:30,177828,3,0,-,752493.4,-83.63266,83453.59,-747851.5,
4789,184,31,09:17:02,31622.78,3,0,-,3645363,-59.46513,1852074,-3139824,
4798,184,40,09:17:32,5623.413,3,0,-,6603935,-20.01014,6205269,-2259776,
4807,184,49,09:18:02,1000,3,0,-,8048654,-36.00682,6510936,-4731654,
4816,184,58,09:18:34,177.8279,3,0,-,2.431728E+07,-59.08989,1.249161E+07,-2.08636E+07,
4825,185,6,09:19:11,14.67799,3,0,-,1.327329E+08,-73.27113,3.82063E+07,-1.271153E+08,
4834,186,2,09:21:30,0.4641589,3,0,-,3.224453E+09,-76.75337,7.388621E+08,-3.138659E+09,
4843,187,7,09:25:15,3162278,3,0,-,31773.09,-86.16788,2123.508,-31702.05,
4852,187,16,09:25:46,562341.3,3,0,-,239887.1,-87.38099,10961.56,-239636.6,
4861,187,25,09:26:15,100000,3,0,-,1318633,-78.39093,265352.9,-1291659,
4870,187,34,09:26:46,17782.79,3,0,-,5012324,-42.13868,3716754,-3362905,
4879,187,43,09:27:16,3162.278,3,0,-,6266210,-18.67406,5936327,-2006341,
4888,187,52,09:27:47,562.3413,3,0,-,1.03611E+07,-49.07453,6787314,-7828453,
4897,187,61,09:28:20,100,3,0,-,3.445319E+07,-58.82325,1.783573E+07,-2.947727E+07,
4906,188,9,09:29:06,4.641589,3,0,-,3.747817E+08,-80.88445,5.937529E+07,-3.700485E+08,
4915,190,1,09:34:00,10000000,3,0,-,4588.949,-98.47482,-676.2952,-4538.841,
4924,190,10,09:34:33,1778280,3,0,-,70964.41,-90.10358,-128.2881,-70964.3,
4933,190,19,09:35:04,316227.8,3,0,-,425339.5,-85.79146,31214.5,-424192.6,
4942,190,28,09:35:35,56234.13,3,0,-,2236078,-69.66986,776878.6,-2096784,
4951,190,37,09:36:05,10000,3,0,-,5738562,-27.07757,5109565,-2612173,
4960,190,46,09:36:35,1778.279,3,0,-,6353088,-26.27682,5696596,-2812565,
4969,190,55,09:37:06,316.2278,3,0,-,1.531115E+07,-56.3955,8474068,-1.275232E+07,
4978,191,3,09:37:43,46.41589,3,0,-,5.389588E+07,-62.6588,2.475376E+07,-4.787501E+07,
4987,191,12,09:38:54,1.467799,3,0,-,1.107879E+09,-79.9083,1.941275E+08,-1.090739E+09,
4996,193,4,09:43:22,5623413,3,0,-,13770.09,-84.43227,1336.01,-13705.13,
5005,193,13,09:43:51,1000000,3,0,-,134687.9,-88.06176,4555.487,-134610.8,
5014,193,22,09:44:22,177828,3,0,-,750986.5,-82.90086,92812.13,-745229.3,
5023,193,31,09:44:53,31622.78,3,0,-,3523444,-56.53351,1943001,-2939287,
5032,193,40,09:45:23,5623.413,3,0,-,5890437,-18.96733,5570610,-1914562,
5041,193,49,09:45:54,1000,3,0,-,7434342,-38.24895,5838399,-4602448,
5050,193,58,09:46:26,177.8279,3,0,-,2.307249E+07,-58.3376,1.211106E+07,-1.963828E+07,
5059,194,6,09:47:03,14.67799,3,0,-,1.287299E+08,-74.72034,3.39243E+07,-1.241794E+08,
5068,195,2,09:49:24,0.4641589,3,0,-,3.062718E+09,-73.12096,8.89268E+08,-2.930776E+09,
5077,196,7,09:52:43,3162278,3,0,-,31807.59,-86.29472,2055.552,-31741.1,
5086,196,16,09:53:14,562341.3,3,0,-,239807.9,-87.24026,11546.32,-239529.8,
5095,196,25,09:53:43,100000,3,0,-,1314281,-77.73611,279172.9,-1284289,
5104,196,34,09:54:15,17782.79,3,0,-,4835806,-40.464,3679149,-3138293,
5113,196,43,09:54:45,3162.278,3,0,-,5885171,-19.00071,5564515,-1916093,
5122,196,52,09:55:16,562.3413,3,0,-,1.014048E+07,-49.61747,6569893,-7724365,
5131,196,61,09:55:49,100,3,0,-,3.333178E+07,-58.67372,1.732956E+07,-2.847268E+07,
5140,197,9,09:56:36,4.641589,3,0,-,3.717932E+08,-80.80247,5.942701E+07,-3.670131E+08,
5149,199,1,10:01:30,10000000,3,0,-,4574.959,-98.82605,-701.9603,-4520.786,
5158,199,10,10:02:03,1778280,3,0,-,71096.59,-90.21655,-268.706,-71096.08,
5167,199,19,10:02:33,316227.8,3,0,-,425027.2,-85.67493,32053.62,-423816.8,
5176,199,28,10:03:05,56234.13,3,0,-,2229525,-69.16878,792855.9,-2083785,
5185,199,37,10:03:34,10000,3,0,-,5631016,-26.54738,5037311,-2516713,
5194,199,46,10:04:05,1778.279,3,0,-,6241059,-26.61195,5579887,-2795654,
5203,199,55,10:04:36,316.2278,3,0,-,1.519643E+07,-56.4022,8409094,-1.265775E+07,
5212,200,3,10:05:12,46.41589,3,0,-,5.325117E+07,-62.89965,2.42586E+07,-4.740472E+07,
5221,200,12,10:06:25,1.467799,3,0,-,1.102878E+09,-79.70432,1.971156E+08,-1.08512E+09,
5230,202,4,10:10:52,5623413,3,0,-,13719.93,-84.51584,1311.226,-13657.13,
5239,202,13,10:11:22,1000000,3,0,-,134538.8,-88.0271,4631.788,-134459,
5248,202,22,10:11:52,177828,3,0,-,750775.5,-82.86228,93287.6,-744957.3,
5257,202,31,10:12:23,31622.78,3,0,-,3510280,-56.19349,1953086,-2916766,
5266,202,40,10:12:54,5623.413,3,0,-,5814495,-18.83977,5502986,-1877632,
5275,202,49,10:13:24,1000,3,0,-,7361250,-38.54805,5757130,-4587316,
5284,202,58,10:13:56,177.8279,3,0,-,2.282816E+07,-58.22501,1.202097E+07,-1.940674E+07,
5293,203,6,10:14:35,14.67799,3,0,-,1.278404E+08,-75.02791,3.302741E+07,-1.235005E+08,
5302,204,2,10:16:53,0.4641589,3,0,-,2.974524E+09,-71.15614,9.607425E+08,-2.815096E+09,
5311,205,7,10:20:12,3162278,3,0,-,31821.62,-86.41229,1991.291,-31759.25,
5320,205,16,10:20:43,562341.3,3,0,-,239822.2,-87.03563,12402.46,-239501.3,
5329,205,25,10:21:11,100000,3,0,-,1309337,-76.77939,299447,-1274635,
5338,205,34,10:21:43,17782.79,3,0,-,4613609,-38.39331,3615990,-2865310,
5347,205,43,10:22:13,3162.278,3,0,-,5481451,-19.56127,5165084,-1835270,
5356,205,52,10:22:44,562.3413,3,0,-,9812249,-50.35189,6260911,-7555213,
5365,205,61,10:23:17,100,3,0,-,3.153108E+07,-58.61637,1.642031E+07,-2.691806E+07,
5374,206,9,10:24:04,4.641589,3,0,-,3.661187E+08,-80.37482,6.121595E+07,-3.609647E+08,
5383,208,1,10:28:57,10000000,3,0,-,4557.192,-99.04608,-716.5243,-4500.51,
5392,208,10,10:29:30,1778280,3,0,-,71206.64,-90.25699,-319.3907,-71205.92,
5401,208,19,10:30:01,316227.8,3,0,-,425000.9,-85.21928,35420.81,-423522.3,
5410,208,28,10:30:32,56234.13,3,0,-,2199705,-67.21353,851941.6,-2028028,
5419,208,37,10:31:06,10000,3,0,-,5148787,-24.58736,4681936,-2142308,
5421,208,39,10:31:13,6812.92,3,0,-,5255871,-19.45587,4955752,-1750629,