File: data_example/1_solartron_output/V429_w53.csv
Exported SMaRT Impedance Data
Experiment start time : 3/7/2011 8:12:34 AM

Result Number,Sweep Number,Point Number,Time,Frequency (Hz),AC Level (V),DC Level (V),Temperature (K),Impedance Magnitude (Ohms),Impedance Phase Degrees ('),Impedance Real (Ohms),Impedance Imaginary (Ohms)
1,1,1,00:00:08,10000000,3,0,-,4550.457,-99.52496,-753.0001,-4487.722,
2,1,2,00:00:11,8254042,3,0,-,4482.594,-68.85213,1617.214,-4180.702,
3,1,3,00:00:26,6812921,3,0,-,10548.1,-84.36404,1035.906,-10497.11,
4,1,4,00:00:33,5623413,3,0,-,13773.91,-85.14323,1166.174,-13724.45,
5,1,5,00:00:38,4641589,3,0,-,18221.3,-86.70509,1047.281,-18191.18,
6,1,6,00:00:41,3831187,3,0,-,24341.23,-86.71863,1393.288,-24301.32,
7,1,7,00:00:45,3162278,3,0,-,31924.76,-86.7017,1836.786,-31871.88,
8,1,8,00:00:48,2610157,3,0,-,46661.88,-88.84862,937.6413,-46652.45,
9,1,9,00:00:51,2154435,3,0,-,57742.02,-89.79803,203.56,-57741.66,
10,1,10,00:00:54,1778280,3,0,-,71315.2,-90.34235,-426.1346,-71313.93,
11,1,11,00:00:58,1467799,3,0,-,87841.23,-90.48975,-750.8677,-87838.02,
12,1,12,00:01:01,1211528,3,0,-,110767,-88.15607,3564.198,-110709.7,
13,1,13,00:01:04,1000000,3,0,-,134606.1,-87.96243,4785.934,-134521,
14,1,14,00:01:07,825404.2,3,0,-,163513.2,-87.70272,6554.377,-163381.8,
15,1,15,00:01:11,681292.1,3,0,-,198173.1,-87.32342,9254.391,-197956.9,
16,1,16,00:01:16,562341.3,3,0,-,240169,-86.95686,12750.12,-239830.3,
17,1,17,00:01:19,464158.9,3,0,-,290370.1,-86.50713,17690.72,-289830.7,
18,1,18,00:01:22,383118.7,3,0,-,351482.3,-85.91362,25046.85,-350588.8,
19,1,19,00:01:25,316227.8,3,0,-,424969.5,-85.17751,35726.88,-423465.1,
20,1,20,00:01:29,261015.7,3,0,-,513397.2,-84.42824,49847.1,-510971.5,
21,1,21,00:01:32,215443.5,3,0,-,620371.9,-83.33672,71984.6,-616181.4,
22,1,22,00:01:35,177828,3,0,-,749392.4,-82.08816,103153.6,-742258.9,
23,1,23,00:01:39,146779.9,3,0,-,904923.3,-80.38258,151184.3,-892204.8,
24,1,24,00:01:42,121152.8,3,0,-,1082228,-78.57536,214366.7,-1060785,
25,1,25,00:01:45,100000,3,0,-,1306679,-76.32635,308887.7,-1269645,
26,1,26,00:01:49,82540.42,3,0,-,1562709,-73.73827,437598.9,-1500189,
27,1,27,00:01:52,68129.21,3,0,-,1856231,-70.63313,615555.5,-1751195,
28,1,28,00:01:58,56234.13,3,0,-,2190340,-67.11457,851800.9,-2017925,
29,1,29,00:02:01,46415.89,3,0,-,2568524,-63.04666,1164222,-2289521,
30,1,30,00:02:04,38311.87,3,0,-,2975594,-58.45825,1556593,-2535977,
31,1,31,00:02:07,31622.78,3,0,-,3387650,-53.42577,2018579,-2720573,
32,1,32,00:02:10,26101.57,3,0,-,3791392,-48.10926,2531559,-2822386,
33,1,33,00:02:14,21544.35,3,0,-,4201569,-42.83344,3081150,-2856518,
34,1,34,00:02:17,17782.79,3,0,-,4513595,-37.49485,3581123,-2747380,
35,1,35,00:02:21,14677.99,3,0,-,4792087,-32.63076,4035718,-2584003,
36,1,36,00:02:24,12115.28,3,0,-,4977765,-28.23067,4385662,-2354594,
37,1,37,00:02:27,10000,3,0,-,5124111,-24.49294,4663005,-2124359,
38,1,38,00:02:30,8254.041,3,0,-,5200754,-21.63634,4834324,-1917591,
39,1,39,00:02:34,6812.92,3,0,-,5240515,-19.45496,4941300,-1745436,
40,1,40,00:02:37,5623.413,3,0,-,5251583,-18.17245,4989645,-1637853,
41,1,41,00:02:41,4641.589,3,0,-,5260662,-17.85558,5007269,-1613017,
42,1,42,00:02:44,3831.187,3,0,-,5271199,-18.41451,5001293,-1665115,
43,1,43,00:02:47,3162.278,3,0,-,5297883,-19.84726,4983194,-1798705,
44,1,44,00:02:50,2610.157,3,0,-,5377090,-21.89285,4989310,-2004966,
45,1,45,00:02:54,2154.435,3,0,-,5503064,-24.89445,4991746,-2316503,
46,1,46,00:02:57,1778.279,3,0,-,5717549,-28.34681,5031957,-2714734,
47,1,47,00:03:01,1467.799,3,0,-,6018917,-32.15774,5095531,-3203580,
48,1,48,00:03:04,1211.528,3,0,-,6387310,-36.13518,5158570,-3766547,
49,1,49,00:03:07,1000,3,0,-,6950935,-40.25558,5304743,-4491681,
50,1,50,00:03:11,825.4042,3,0,-,7669053,-44.06263,5510829,-5333398,
51,1,51,00:03:14,681.2921,3,0,-,8578914,-47.61528,5783094,-6336687,
52,1,52,00:03:18,562.3413,3,0,-,9697439,-50.61159,6153747,-7494781,
53,1,53,00:03:21,464.1589,3,0,-,1.106437E+07,-53.10865,6641940,-8849012,
54,1,54,00:03:25,383.1187,3,0,-,1.268172E+07,-54.95167,7282696,-1.038211E+07,
55,1,55,00:03:28,316.2278,3,0,-,1.456026E+07,-56.21651,8096326,-1.210169E+07,
56,1,56,00:03:33,261.0157,3,0,-,1.668866E+07,-56.99733,9089952,-1.399586E+07,
57,1,57,00:03:36,215.4435,3,0,-,1.90662E+07,-57.37342,1.027976E+07,-1.60576E+07,
58,1,58,00:03:40,177.8279,3,0,-,2.165347E+07,-57.55361,1.161731E+07,-1.827323E+07,
59,1,59,00:03:43,146.7799,3,0,-,2.447482E+07,-57.73152,1.30668E+07,-2.069482E+07,
60,1,60,00:03:47,121.1528,3,0,-,2.75431E+07,-58.04824,1.457595E+07,-2.337015E+07,
61,1,61,00:03:50,100,3,0,-,3.091844E+07,-58.62452,1.609751E+07,-2.639735E+07,
62,2,1,00:03:55,100,3,0,-,3.092484E+07,-58.61336,1.610599E+07,-2.639967E+07,
63,2,2,00:04:01,68.1292,3,0,-,3.898671E+07,-60.77812,1.903305E+07,-3.402509E+07,
64,2,3,00:04:04,46.41589,3,0,-,4.990419E+07,-64.18013,2.173544E+07,-4.492214E+07,
65,2,4,00:04:08,31.62278,3,0,-,6.5882E+07,-68.39246,2.426086E+07,-6.125233E+07,
66,2,5,00:04:12,21.54435,3,0,-,8.962262E+07,-72.4885,2.696722E+07,-8.54692E+07,
67,2,6,00:04:17,14.67799,3,0,-,1.250718E+08,-75.86672,3.053983E+07,-1.212859E+08,
68,2,7,00:04:21,10,3,0,-,1.774203E+08,-78.26331,3.608987E+07,-1.73711E+08,
69,2,8,00:04:31,6.812921,3,0,-,2.538256E+08,-79.67005,4.551518E+07,-2.497114E+08,
70,2,9,00:04:38,4.641589,3,0,-,3.639857E+08,-80.17381,6.21179E+07,-3.58646E+08,
71,2,10,00:04:49,3.162278,3,0,-,5.21414E+08,-79.91156,9.133518E+07,-5.133522E+08,
72,2,11,00:05:05,2.154435,3,0,-,7.438169E+08,-78.9227,1.429121E+08,-7.299587E+08,
73,2,12,00:05:19,1.467799,3,0,-,1.064119E+09,-77.20525,2.356592E+08,-1.037696E+09,
74,2,13,00:05:48,1,3,0,-,1.493334E+09,-74.73414,3.931924E+08,-1.44064E+09,
75,3,1,00:06:04,1,3,0,-,1.492225E+09,-74.69305,3.93933E+08,-1.439289E+09,
76,3,2,00:06:36,0.4641589,3,0,-,2.822376E+09,-67.43793,1.082901E+09,-2.606364E+09,
77,3,3,00:07:16,0.2154435,3,0,-,4.875065E+09,-56.69581,2.676821E+09,-4.074419E+09,
78,3,4,00:09:22,0.1,3,0,-,9.378398E+09,-44.30565,6.711407E+09,-6.550678E+09,
79,4,1,00:09:32,10000000,3,0,-,4530.701,-99.87057,-776.6682,-4463.635,
80,4,2,00:09:36,8254042,3,0,-,4482.49,-69.29703,1584.666,-4193.036,
81,4,3,00:09:40,6812921,3,0,-,10566.23,-84.6478,985.5969,-10520.17,
82,4,4,00:09:46,5623413,3,0,-,13738.76,-85.5284,1071.147,-13696.94,
83,4,5,00:09:49,4641589,3,0,-,18279.41,-87.0992,925.0706,-18255.99,
84,4,6,00:09:53,3831187,3,0,-,24346.01,-87.03393,1259.781,-24313.4,
85,4,7,00:09:56,3162278,3,0,-,31959.85,-87.10619,1613.501,-31919.09,
86,4,8,00:09:59,2610157,3,0,-,46805.61,-89.25439,609.0974,-46801.64,
87,4,9,00:10:03,2154435,3,0,-,57934.74,-90.25504,-257.8859,-57934.16,
88,4,10,00:10:06,1778280,3,0,-,71552.62,-90.63,-786.7874,-71548.29,
89,4,11,00:10:09,1467799,3,0,-,88105.39,-90.69739,-1072.391,-88098.87,
90,4,12,00:10:13,1211528,3,0,-,111033.9,-88.33974,3217,-110987.3,
91,4,13,00:10:16,1000000,3,0,-,135241.4,-88.12325,4429.13,-135168.9,
92,4,14,00:10:19,825404.2,3,0,-,163908.6,-87.76129,6402.808,-163783.5,
93,4,15,00:10:22,681292.1,3,0,-,198495.4,-87.36491,9125.86,-198285.5,
94,4,16,00:10:27,562341.3,3,0,-,240439.3,-86.94209,12826.38,-240096.9,
95,4,17,00:10:30,464158.9,3,0,-,290627.5,-86.43571,18067.98,-290065.3,
96,4,18,00:10:33,383118.7,3,0,-,351428.3,-85.89215,25174.32,-350525.4,
97,4,19,00:10:37,316227.8,3,0,-,425471.1,-85.15086,35966.23,-423948.2,
98,4,20,00:10:40,261015.7,3,0,-,513586.4,-84.33709,50678.6,-511079.9,
99,4,21,00:10:43,215443.5,3,0,-,620436.9,-83.27966,72605.78,-616173.9,
100,4,22,00:10:46,177828,3,0,-,749257.8,-81.99863,104294.6,-741963.5,
101,4,23,00:10:50,146779.9,3,0,-,906099.1,-80.26176,153264.4,-893042.9,
102,4,24,00:10:53,121152.8,3,0,-,1090699,-78.18217,223376.2,-1067580,
103,4,25,00:10:56,100000,3,0,-,1305626,-76.24545,310429.8,-1268184,
104,4,26,00:10:59,82540.42,3,0,-,1558347,-73.62671,439289.6,-1495149,
105,4,27,00:11:03,68129.21,3,0,-,1853555,-70.58172,616236.9,-1748118,
106,4,28,00:11:08,56234.13,3,0,-,2189915,-66.97625,856503.9,-2015472,
107,4,29,00:11:12,46415.89,3,0,-,2559861,-62.8294,1168939,-2277382,
108,4,30,00:11:15,38311.87,3,0,-,2960259,-58.24937,1557758,-2517246,
109,4,31,00:11:18,31622.78,3,0,-,3376844,-53.20305,2022666,-2704052,
110,4,32,00:11:21,26101.57,3,0,-,3778321,-47.88079,2534027,-2802573,
111,4,33,00:11:24,21544.35,3,0,-,4167104,-42.49289,3072662,-2814873,
112,4,34,00:11:28,17782.79,3,0,-,4490434,-37.29437,3572289,-2720799,
113,4,35,00:11:31,14677.99,3,0,-,4780729,-32.39262,4036834,-2561122,
114,4,36,00:11:35,12115.28,3,0,-,4944319,-28.11221,4361020,-2329762,
115,4,37,00:11:38,10000,3,0,-,5087997,-24.39539,4633725,-2101501,
116,4,38,00:11:41,8254.041,3,0,-,5150666,-21.41879,4794941,-1880931,
117,4,39,00:11:45,6812.92,3,0,-,5202210,-19.3501,4908346,-1723697,
118,4,40,00:11:48,5623.413,3,0,-,5209476,-18.1193,4951143,-1620129,
119,4,41,00:11:51,4641.589,3,0,-,5240196,-17.87998,4987103,-1608866,
120,4,42,00:11:55,3831.187,3,0,-,5245646,-18.27008,4981210,-1644492,
121,4,43,00:11:58,3162.278,3,0,-,5260255,-19.74777,4950895,-1777335,
122,4,44,00:12:01,2610.157,3,0,-,5340029,-21.98286,4951787,-1998928,
123,4,45,00:12:05,2154.435,3,0,-,5467758,-25.00411,4955306,-2311130,
124,4,46,00:12:08,1778.279,3,0,-,5684048,-28.48627,4995889,-2710996,
125,4,47,00:12:11,1467.799,3,0,-,5988018,-32.26507,5063393,-3196625,
126,4,48,00:12:15,1211.528,3,0,-,6357979,-36.23876,5128096,-3758528,
127,4,49,00:12:18,1000,3,0,-,6919052,-40.36117,5272162,-4480803,
128,4,50,00:12:22,825.4042,3,0,-,7644842,-44.26624,5474504,-5336049,
129,4,51,00:12:25,681.2921,3,0,-,8549298,-47.68682,5755241,-6322002,
130,4,52,00:12:29,562.3413,3,0,-,9668068,-50.84345,6104820,-7496847,
131,4,53,00:12:32,464.1589,3,0,-,1.103074E+07,-53.1335,6617926,-8824986,
132,4,54,00:12:36,383.1187,3,0,-,1.264447E+07,-54.94909,7261770,-1.035129E+07,
133,4,55,00:12:39,316.2278,3,0,-,1.451071E+07,-56.19028,8074295,-1.205681E+07,
134,4,56,00:12:44,261.0157,3,0,-,1.662956E+07,-56.94445,9070625,-1.393793E+07,
135,4,57,00:12:47,215.4435,3,0,-,1.89875E+07,-57.31459,1.025375E+07,-1.59808E+07,
136,4,58,00:12:51,177.8279,3,0,-,2.156519E+07,-57.49655,1.158807E+07,-1.818719E+07,
137,4,59,00:12:54,146.7799,3,0,-,2.436262E+07,-57.69088,1.302151E+07,-2.059072E+07,
138,4,60,00:12:58,121.1528,3,0,-,2.740873E+07,-58.03198,1.451144E+07,-2.325202E+07,
139,4,61,00:13:01,100,3,0,-,3.075592E+07,-58.63703,1.600717E+07,-2.626209E+07,
140,5,1,00:13:07,100,3,0,-,3.075309E+07,-58.64812,1.600061E+07,-2.626277E+07,
141,5,2,00:13:12,68.1292,3,0,-,3.879907E+07,-60.82477,1.891386E+07,-3.387674E+07,
142,5,3,00:13:15,46.41589,3,0,-,4.979476E+07,-64.27638,2.161245E+07,-4.486E+07,
143,5,4,00:13:19,31.62278,3,0,-,6.564046E+07,-68.507,2.404986E+07,-6.107598E+07,
144,5,5,00:13:23,21.54435,3,0,-,8.93963E+07,-72.591,2.674655E+07,-8.530134E+07,
145,5,6,00:13:28,14.67799,3,0,-,1.248421E+08,-75.94205,3.032456E+07,-1.211032E+08,
146,5,7,00:13:33,10,3,0,-,1.771391E+08,-78.30667,3.590139E+07,-1.734628E+08,
147,5,8,00:13:42,6.812921,3,0,-,2.53483E+08,-79.6801,4.541001E+07,-2.493823E+08,
148,5,9,00:13:49,4.641589,3,0,-,3.634941E+08,-80.14866,6.21912E+07,-3.581343E+08,
149,5,10,00:13:58,3.162278,3,0,-,5.205925E+08,-79.85127,9.17306E+07,-5.124471E+08,
150,5,11,00:14:14,2.154435,3,0,-,7.424842E+08,-78.83146,1.438162E+08,-7.284227E+08,
151,5,12,00:14:28,1.467799,3,0,-,1.061628E+09,-77.09546,2.370909E+08,-1.034815E+09,
152,5,13,00:14:56,1,3,0,-,1.489667E+09,-74.57558,3.962027E+08,-1.436012E+09,
153,6,1,00:15:13,1,3,0,-,1.489805E+09,-74.53632,3.972234E+08,-1.435873E+09,
154,6,2,00:15:46,0.4641589,3,0,-,2.810702E+09,-67.2068,1.088884E+09,-2.591212E+09,
155,6,3,00:16:27,0.2154435,3,0,-,4.848944E+09,-55.37586,2.755124E+09,-3.990181E+09,
156,6,4,00:18:32,0.1,3,0,-,9.299778E+09,-43.88929,6.702172E+09,-6.447229E+09,
157,7,1,00:18:42,10000000,3,0,-,4529.892,-100.1931,-801.6432,-4458.395,
158,7,2,00:18:47,8254042,3,0,-,8265.004,-85.41168,661.1668,-8238.517,
159,7,3,00:18:50,6812921,3,0,-,10566.47,-84.83936,950.4409,-10523.64,
160,7,4,00:18:56,5623413,3,0,-,13768.02,-85.72231,1026.967,-13729.66,
161,7,5,00:19:00,4641589,3,0,-,18282.15,-87.31405,856.7355,-18262.07,
162,7,6,00:19:03,3831187,3,0,-,24371.6,-87.20833,1187.016,-24342.68,
163,7,7,00:19:06,3162278,3,0,-,32019.06,-87.33585,1488.305,-31984.46,
164,7,8,00:19:10,2610157,3,0,-,46859.85,-89.37389,512.0782,-46857.05,
165,7,9,00:19:13,2154435,3,0,-,57965.63,-90.28601,-289.3767,-57964.91,
166,7,10,00:19:16,1778280,3,0,-,71572.21,-90.71924,-898.4641,-71566.57,
167,7,11,00:19:19,1467799,3,0,-,88212.33,-90.72336,-1113.711,-88205.3,
168,7,12,00:19:23,1211528,3,0,-,111063.3,-88.40845,3084.72,-111020.5,
169,7,13,00:19:26,1000000,3,0,-,134941.4,-88.10273,4467.628,-134867.4,
170,7,14,00:19:29,825404.2,3,0,-,163853.5,-87.73158,6485.544,-163725.1,
171,7,15,00:19:32,681292.1,3,0,-,198603.7,-87.36375,9134.84,-198393.5,
172,7,16,00:19:37,562341.3,3,0,-,240207.6,-86.96838,12703.99,-239871.5,
173,7,17,00:19:40,464158.9,3,0,-,290493.9,-86.48835,17793.29,-289948.4,
174,7,18,00:19:43,383118.7,3,0,-,351425.7,-85.8937,25164.69,-350523.5,
175,7,19,00:19:47,316227.8,3,0,-,424884.7,-85.23772,35274.8,-423417.9,
176,7,20,00:19:50,261015.7,3,0,-,513790.8,-84.31577,50889.03,-511264.3,
177,7,21,00:19:53,215443.5,3,0,-,620031.7,-83.30603,72274.91,-615804.9,
178,7,22,00:19:56,177828,3,0,-,748721.6,-81.98312,104420.5,-741404.3,
179,7,23,00:20:00,146779.9,3,0,-,905201.1,-80.22443,153693.8,-892057.9,
180,7,24,00:20:03,121152.8,3,0,-,1091148,-78.28522,221546.7,-1068420,
181,7,25,00:20:06,100000,3,0,-,1305419,-76.17368,311968.9,-1267594,
182,7,26,00:20:09,82540.42,3,0,-,1560600,-73.58942,440898.9,-1497024,
183,7,27,00:20:12,68129.21,3,0,-,1854456,-70.4656,620080,-1747715,
184,7,28,00:20:18,56234.13,3,0,-,2191527,-66.8941,860025.1,-2015724,
185,7,29,00:20:21,46415.89,3,0,-,2564483,-62.794,1172459,-2280770,
186,7,30,00:20:24,38311.87,3,0,-,2957606,-58.17833,1559479,-2513058,
187,7,31,00:20:28,31622.78,3,0,-,3372855,-53.11259,2024538,-2697665,
188,7,32,00:20:31,26101.57,3,0,-,3772921,-47.79567,2534560,-2794805,
189,7,33,00:20:34,21544.35,3,0,-,4153146,-42.35999,3068869,-2798333,
190,7,34,00:20:38,17782.79,3,0,-,4485327,-37.19947,3572723,-2711791,
191,7,35,00:20:41,14677.99,3,0,-,4726003,-32.30005,3994708,-2525354,
192,7,36,00:20:44,12115.28,3,0,-,4933919,-28.06754,4353659,-2321468,
193,7,37,00:20:48,10000,3,0,-,5058660,-24.39406,4607056,-2089277,
194,7,38,00:20:51,8254.041,3,0,-,5145354,-21.41031,4790274,-1878282,
195,7,39,00:20:55,6812.92,3,0,-,5174873,-19.31442,4883619,-1711599,
196,7,40,00:20:58,5623.413,3,0,-,5196592,-18.11395,4939049,-1615661,
197,7,41,00:21:01,4641.589,3,0,-,5199785,-17.7508,4952231,-1585297,
198,7,42,00:21:04,3831.187,3,0,-,5218448,-18.25805,4955726,-1634925,
199,7,43,00:21:08,3162.278,3,0,-,5246636,-19.80372,4936344,-1777555,
200,7,44,00:21:11,2610.157,3,0,-,5324709,-22.0294,4935960,-1997204,
201,7,45,00:21:14,2154.435,3,0,-,5454408,-24.97697,4944299,-2303145,
202,7,46,00:21:18,1778.279,3,0,-,5668723,-28.45732,4983784,-2701169,
203,7,47,00:21:21,1467.799,3,0,-,5976173,-32.35276,5048489,-3198032,
204,7,48,00:21:25,1211.528,3,0,-,6349416,-36.3592,5113288,-3764222,
205,7,49,00:21:28,1000,3,0,-,6909183,-40.40438,5261266,-4478381,
206,7,50,00:21:32,825.4042,3,0,-,7629453,-44.28743,5461514,-5327328,
207,7,51,00:21:35,681.2921,3,0,-,8537417,-47.71876,5743722,-6316419,
208,7,52,00:21:39,562.3413,3,0,-,9666909,-50.81333,6108028,-7492739,
209,7,53,00:21:42,464.1589,3,0,-,1.101605E+07,-53.12502,6610414,-8812253,
210,7,54,00:21:46,383.1187,3,0,-,1.262667E+07,-54.93355,7254355,-1.033476E+07,
211,7,55,00:21:49,316.2278,3,0,-,1.448955E+07,-56.16225,8068411,-1.203528E+07,
212,7,56,00:21:54,261.0157,3,0,-,1.660148E+07,-56.9147,9062534,-1.390969E+07,
213,7,57,00:21:57,215.4435,3,0,-,1.895483E+07,-57.28077,1.024552E+07,-1.594726E+07,
214,7,58,00:22:01,177.8279,3,0,-,2.152415E+07,-57.47611,1.157249E+07,-1.814846E+07,
215,7,59,00:22:04,146.7799,3,0,-,2.430844E+07,-57.67389,1.299864E+07,-2.054107E+07,
216,7,60,00:22:08,121.1528,3,0,-,2.734427E+07,-58.01788,1.448302E+07,-2.319377E+07,
217,7,61,00:22:12,100,3,0,-,3.068539E+07,-58.63814,1.596995E+07,-2.620217E+07,
218,8,1,00:22:17,100,3,0,-,3.070681E+07,-58.62131,1.59888E+07,-2.621577E+07,
219,8,2,00:22:22,68.1292,3,0,-,3.869959E+07,-60.85752,1.884605E+07,-3.380066E+07,
220,8,3,00:22:26,46.41589,3,0,-,4.966208E+07,-64.40887,2.145136E+07,-4.47902E+07,
221,8,4,00:22:29,31.62278,3,0,-,6.553888E+07,-68.54786,2.396915E+07,-6.099856E+07,
222,8,5,00:22:33,21.54435,3,0,-,8.930736E+07,-72.63469,2.665497E+07,-8.523683E+07,
223,8,6,00:22:38,14.67799,3,0,-,1.24729E+08,-75.9819,3.021296E+07,-1.210145E+08,
224,8,7,00:22:43,10,3,0,-,1.769928E+08,-78.32935,3.580317E+07,-1.733337E+08,
225,8,8,00:22:52,6.812921,3,0,-,2.533055E+08,-79.69321,4.53212E+07,-2.492181E+08,
226,8,9,00:22:59,4.641589,3,0,-,3.633046E+08,-80.1634,6.206667E+07,-3.579636E+08,
227,8,10,00:23:11,3.162278,3,0,-,5.203194E+08,-79.85169,9.167876E+07,-5.121789E+08,
228,8,11,00:23:27,2.154435,3,0,-,7.420054E+08,-78.80758,1.440269E+08,-7.278931E+08,
229,8,12,00:23:41,1.467799,3,0,-,1.060836E+09,-77.0535,2.376712E+08,-1.03387E+09,
230,8,13,00:24:09,1,3,0,-,1.488405E+09,-74.53385,3.969118E+08,-1.434507E+09,
231,9,1,00:24:26,1,3,0,-,1.487755E+09,-74.47211,3.982832E+08,-1.433452E+09,
232,9,2,00:24:59,0.4641589,3,0,-,2.80706E+09,-67.147,1.090173E+09,-2.586717E+09,
233,9,3,00:25:40,0.2154435,3,0,-,4.854185E+09,-55.69769,2.735622E+09,-4.009923E+09,
234,9,4,00:27:45,0.1,3,0,-,9.289833E+09,-43.89552,6.694305E+09,-6.441063E+09,
235,10,1,00:27:55,10000000,3,0,-,4540.569,-99.56088,-754.1683,-4477.499,
236,10,2,00:28:00,8254042,3,0,-,4481.491,-68.89741,1613.512,-4180.95,